Folder: Experimetal_Resulsts

Note: FIEM_BCQDs.txt
302	0.033711631
303.0700073	0.015894005
304	-0.060152255
305.0700073	-0.095890686
306	-0.047033001
307.0700073	-0.080624118
308	-0.037979428
309.0700073	0.086998262
310	0.194092691
310.9299927	0.136920154
312.0299988	0.070111856
312.9599915	0.077043034
314.0599976	0.090929389
315	0.085304521
315.9299927	0.097813614
317.0299988	0.14216654
317.9599915	0.133692443
319.0599976	0.048244808
320	0.033861857
321.0700073	0.095726222
322	0.127032295
323.0700073	0.061014149
324	0.065492369
325.0700073	0.069063164
326	0.113858827
327.0700073	0.101435326
328	0.077833138
329.0700073	0.048790995
330	0.083074771
330.9299927	0.120529205
332.0299988	0.106712535
332.9599915	0.085971035
334.0599976	0.076407298
335	0.110512592
335.9299927	0.173817352
337.0299988	0.180017799
337.9599915	0.17296207
339.0599976	0.083231881
340	0.123385914
341.0700073	0.168718979
342	0.250458062
343.0700073	0.225969419
344	0.17249845
345.0700073	0.047049601
346	0.006437743
347.0700073	0.092778191
348	0.146831036
349.0700073	0.152481929
350	0.145093441
351.0700073	0.166778371
352	0.173270538
353.0700073	0.159672886
354	0.114398897
355.0700073	0.162314847
356	0.218710214
357.0700073	0.24691987
358	0.227108717
359.0700073	0.18772085
360	0.119391233
361.0700073	0.163985774
362	0.140480503
363.0700073	0.154190198
364	0.145663679
365.0700073	0.177687794
366	0.154300645
367.0700073	0.165390357
368	0.108290061
369.0700073	0.095802583
370	0.129266933
371.0700073	0.157606542
372	0.145407796
373.0700073	0.148278147
374	0.196706727
375.0700073	0.15562585
376	0.13521938
377.0700073	0.04308391
378	0.179702103
379.0700073	0.21439682
380	0.181189954
381.0700073	0.181936309
382	0.293098629
383.0700073	0.359689266
384	0.210594893
385.0700073	0.164558709
386	0.221760407
387.0700073	0.312020004
388	0.297039568
389.0700073	0.309470087
390	0.348512977
391.0700073	0.304009229
392	0.245289087
393.0700073	0.195985153
394	0.255282134
395.0700073	0.271477789
396	0.173911959
397.0700073	0.138465539
398	0.246873066
399.0700073	0.399261624
400	0.408091664
401.0599976	0.377093792
401.9599915	0.28886494
403.0299988	0.243983775
403.9299927	0.358300865
405	0.481668055
406.0599976	0.516716003
406.9599915	0.47111547
408.0299988	0.472690135
408.9299927	0.460162878
410	0.552502811
411.0700073	0.599737942
412	0.57690984
413.0700073	0.50500685
414	0.569486976
415.0700073	0.619742751
416	0.704823375
417.0700073	0.715444565
418	0.690107763
419.0700073	0.744454384
420	0.835851967
421.0599976	0.903297365
421.9599915	0.987104058
423.0299988	1.040297866
423.9299927	1.076106668
425	1.193509579
426.0599976	1.415503144
426.9599915	1.501033664
428.0299988	1.847079635
428.9299927	2.197204828
430	2.765270233
431.0700073	3.488461971
432	4.3535676
433.0700073	5.291585445
434	7.046335697
435.0700073	9.125076294
436	11.56880569
437.0700073	14.29842472
438	17.84726906
439.0700073	22.03803825
440	27.89323616

Note: FlEX_BCQDs.txt
202.0299988	135.0049744
202.9600067	149.9475708
204.0599976	167.6240234
205	160.4685364
205.9299927	149.2218323
207.0299988	141.8201141
207.9600067	164.7434235
209.0599976	157.5920715
210	151.6289978
210.9299927	143.8191071
212.0299988	165.5621185
212.9600067	175.2846069
214.0599976	189.6087952
215	191.5580444
215.9299927	220.0267029
217.0299988	207.3038635
217.9600067	201.9836731
219.0599976	192.9771881
220	211.0752411
220.9299927	211.4697876
222.0299988	211.9150543
222.9600067	215.291687
224.0599976	222.4941406
225	224.1703796
225.9299927	225.1130829
227.0299988	237.8839417
227.9600067	251.1895905
229.0599976	256.1551208
230	255.8258667
230.9299927	258.4555054
232.0299988	260.0951538
232.9600067	260.4668579
234.0599976	260.8571167
235	265.76297
235.9299927	265.1950073
237.0299988	262.6871643
237.9600067	259.4341431
239.0599976	259.0363159
240	257.7405701
241.0700073	261.9112244
242	267.5894775
243.0700073	268.4534912
244	264.4138489
245.0700073	256.5827942
246	252.4494019
247.0700073	246.8402252
248	244.0858765
249.0700073	237.1226501
250	231.1160583
250.9299927	224.259491
252.0299988	214.6649628
252.9600067	203.2632141
254.0599976	192.9189911
255	182.035202
255.9299927	167.1725769
257.0299988	154.7823792
257.9599915	149.0141602
259.0599976	147.2642212
260	143.3213806
260.9299927	136.7050171
262.0299988	131.309906
262.9599915	126.9497528
264.0599976	122.5462265
265	116.8716965
265.9299927	110.7008286
267.0299988	104.9910202
267.9599915	100.8769989
269.0599976	97.91397858
270	95.80799866
271.0700073	93.61763763
272	92.07413483
273.0700073	89.89253235
274	88.81777191
275.0700073	88.19049835
276	89.09104156
277.0700073	89.93613434
278	90.52232361
279.0700073	89.24332428
280	88.01174927
280.9299927	87.85793304
282.0299988	90.43531036
282.9599915	91.35425568
284.0599976	92.77716064
285	95.27225494
285.9299927	97.0270462
287.0299988	98.71930695
287.9599915	101.4298859
289.0599976	104.8675461
290	106.291153
291.0700073	108.909317
292	111.0614395
293.0700073	114.4556122
294	118.4804077
295.0700073	123.2782745
296	127.4015274
297.0700073	132.2782135
298	138.5997162
299.0700073	143.526947
300	148.4765472
300.9299927	152.3096924
302.0299988	158.5752563
302.9599915	163.6536407
304.0599976	169.1104736
305	174.837738
305.9299927	180.0517731
307.0299988	187.6735229
307.9599915	195.2689819
309.0599976	204.1209869
310	208.2102814
311.0700073	215.5776062
312	223.3759613
313.0700073	234.594574
314	244.1802216
315.0700073	249.9993439
316	254.5528564
317.0700073	259.9451904
318	269.5025635
319.0700073	279.9003296
320	287.053894
321.0700073	290.6790466
322	296.9408264
323.0700073	306.0563049
324	315.0492249
325.0700073	322.7333679
326	332.7988281
327.0700073	342.5795288
328	351.4130249
329.0700073	357.9505005
330	359.6704407
331.0700073	362.1217651
332	369.2067871
333.0700073	382.8823853
334	387.6347046
335.0700073	391.463562
336	395.

File: XRD-CCQD.txt
10	141
10.24	128
10.48	96
10.72	73
10.96	80
11.2	74
11.44	90
11.68	80
11.92	76
12.16	70
12.4	84
12.64	71
12.88	83
13.12	78
13.36	65
13.6	76
13.84	83
14.08	75
14.32	62
14.56	75
14.8	79
15.04	72
15.28	92
15.52	72
15.76	66
16	76
16.24	94
16.48	74
16.72	68
16.96	77
17.2	72
17.44	58
17.68	73
17.92	54
18.16	77
18.4	67
18.64	67
18.88	72
19.12	73
19.36	69
19.6	68
19.84	75
20.08	74
20.32	79
20.56	65
20.8	72
21.04	79
21.28	88
21.52	76
21.76	63
22	74
22.24	87
22.48	76
22.72	74
22.96	82
23.2	93
23.44	76
23.68	79
23.92	77
24.16	94
24.4	64
24.64	75
24.88	76
25.12	83
25.36	87
25.6	84
25.84	86
26.08	83
26.32	87
26.56	80
26.8	74
27.04	93
27.28	87
27.52	85
27.76	84
28	83
28.24	79
28.48	82
28.72	67
28.96	60
29.2	77
29.44	66
29.68	83
29.92	72
30.16	61
30.4	78
30.64	57
30.88	76
31.12	46
31.36	62
31.6	57
31.84	52
32.08	58
32.32	50
32.56	55
32.8	48
33.04	55
33.28	50
33.52	66
33.76	50
34	43
34.24	44
34.48	52
34.72	45
34.96	44
35.2	46
35.44	45
35.68	42
35.92	35
36.16	46
36.4	40
36.64	44
36.88	34
37.12	44
37.36	45
37.6	40
37.84	45
38.08	52
38.32	69
38.56	42
38.8	42
39.04	47
39.28	33
39.52	34
39.76	37
40	33
40.24	37
40.48	42
40.72	34
40.96	42
41.2	44
41.44	37
41.68	42
41.92	43
42.16	31
42.4	28
42.64	33
42.88	36
43.12	36
43.36	37
43.6	38
43.84	42
44.08	34
44.32	50
44.56	91
44.8	58
45.04	33
45.28	55
45.52	31
45.76	36
46	41
46.24	38
46.48	41
46.72	34
46.96	32
47.2	34
47.44	35
47.68	44
47.92	44
48.16	41
48.4	26
48.64	43
48.88	27
49.12	42
49.36	29
49.6	30
49.84	28
50.08	28
50.32	27
50.56	37
50.8	36
51.04	37
51.28	30
51.52	37
51.76	33
52	42
52.24	33
52.48	27
52.72	30
52.96	36
53.2	30
53.44	28
53.68	44
53.92	45
54.16	45
54.4	30
54.64	33
54.88	34
55.12	33
55.36	35
55.6	30
55.84	37
56.08	35
56.32	36
56.56	34
56.8	30
57.04	32
57.28	36
57.52	41
57.76	39
58	31
58.24	35
58.48	36
58.72	38
58.96	45
59.2	30
59.44	28
59.68	40
59.92	28
60.16	32
60.4	26
60.64	35
60.88	26
61.12	21
61.36	31
61.6	38
61.84	46
62.08	29
62.32	26
62.56	33
62.8	32
63.04	26
63.28	32
63.52	32
63.76	27
64	34
64.24	24
64.48	29
64.72	38
64.96	35
65.2	29
65.44	39
65.68	25
65.92	31
66.16	27
66.4	36
66.64	35
66.88	30
67.12	20
67.36	38
67.6	37
67.84	33
68.08	30
68.32	22
68.56	27
68.8	23
69.04	27
69.28	25
69.52	24
69.76	23
70	28
70.24	31
70.48	28
70.72	24
70.96	33
71.2	16
71.44	27
71.68	32
71.92	32
72.16	30
72.4	36
72.64	22
72.88	36
73.12	27
73.36	28
73.6	31
73.84	28
74.08	23
74.32	26
74.56	29
74.8	19
75.04	26
75.28	25
75.52	32
75.76	27
76	23
76.24	28
76.48	23
76.72	23
76.96	24
77.2	17
77.44	29
77.68	26
77.92	38
78.16	40
78.4	35
78.64	30
78.88	28
79.12	19
79.36	34
79.6	22
79.84	25
80	29

File: XRD-RCQD.txt
10	152
10.24	117
10.48	91
10.72	65
10.96	76
11.2	64
11.44	70
11.68	59
11.92	59
12.16	75
12.4	67
12.64	72
12.88	68
13.12	71
13.36	82
13.6	75
13.84	95
14.08	65
14.32	107
14.56	91
14.8	72
15.04	76
15.28	86
15.52	72
15.76	81
16	73
16.24	89
16.48	90
16.72	92
16.96	80
17.2	73
17.44	80
17.68	79
17.92	83
18.16	71
18.4	88
18.64	72
18.88	77
19.12	63
19.36	78
19.6	94
19.84	79
20.08	79
20.32	110
20.56	120
20.8	128
21.04	191
21.28	174
21.52	135
21.76	225
22	117
22.24	155
22.48	97
22.72	86
22.96	117
23.2	92
23.44	74
23.68	71
23.92	101
24.16	105
24.4	92
24.64	59
24.88	70
25.12	64
25.36	69
25.6	67
25.84	66
26.08	43
26.32	57
26.56	49
26.8	42
27.04	74
27.28	60
27.52	62
27.76	55
28	62
28.24	62
28.48	61
28.72	55
28.96	49
29.2	49
29.44	85
29.68	45
29.92	57
30.16	56
30.4	59
30.64	64
30.88	66
31.12	41
31.36	55
31.6	56
31.84	45
32.08	70
32.32	40
32.56	56
32.8	53
33.04	48
33.28	41
33.52	55
33.76	50
34	29
34.24	52
34.48	44
34.72	48
34.96	38
35.2	50
35.44	35
35.68	61
35.92	46
36.16	48
36.4	39
36.64	29
36.88	47
37.12	46
37.36	40
37.6	54
37.84	48
38.08	46
38.32	287
38.56	358
38.8	46
39.04	45
39.28	26
39.52	27
39.76	40
40	34
40.24	35
40.48	52
40.72	42
40.96	32
41.2	38
41.44	29
41.68	35
41.92	42
42.16	43
42.4	42
42.64	53
42.88	29
43.12	41
43.36	51
43.6	38
43.84	29
44.08	38
44.32	51
44.56	279
44.8	320
45.04	50
45.28	44
45.52	44
45.76	37
46	50
46.24	47
46.48	41
46.72	41
46.96	50
47.2	43
47.44	42
47.68	32
47.92	29
48.16	41
48.4	44
48.64	33
48.88	42
49.12	37
49.36	39
49.6	34
49.84	27
50.08	25
50.32	29
50.56	31
50.8	38
51.04	23
51.28	26
51.52	25
51.76	34
52	40
52.24	31
52.48	26
52.72	26
52.96	27
53.2	37
53.44	42
53.68	32
53.92	29
54.16	30
54.4	27
54.64	27
54.88	25
55.12	38
55.36	33
55.6	32
55.84	33
56.08	34
56.32	27
56.56	26
56.8	25
57.04	24
57.28	35
57.52	30
57.76	27
58	27
58.24	25
58.48	27
58.72	23
58.96	29
59.2	26
59.44	25
59.68	16
59.92	34
60.16	24
60.4	25
60.64	30
60.88	23
61.12	25
61.36	30
61.6	25
61.84	23
62.08	33
62.32	24
62.56	19
62.8	19
63.04	19
63.28	31
63.52	21
63.76	28
64	38
64.24	36
64.48	34
64.72	29
64.96	55
65.2	74
65.44	20
65.68	25
65.92	24
66.16	23
66.4	24
66.64	20
66.88	26
67.12	16
67.36	25
67.6	26
67.84	34
68.08	22
68.32	24
68.56	21
68.8	17
69.04	24
69.28	25
69.52	26
69.76	19
70	25
70.24	17
70.48	26
70.72	18
70.96	21
71.2	22
71.44	19
71.68	22
71.92	16
72.16	19
72.4	27
72.64	15
72.88	20
73.12	25
73.36	29
73.6	24
73.84	25
74.08	18
74.32	33
74.56	20
74.8	19
75.04	26
75.28	24
75.52	24
75.76	20
76	19
76.24	19
76.48	19
76.72	22
76.96	27
77.2	19
77.44	18
77.68	22
77.92	27
78.16	120
78.4	88
78.64	21
78.88	17
79.12	23
79.36	20
79.6	24
79.84	21
80	17

File: XRD-YCQD.txt
10	207
10.24	168
10.48	109
10.72	92
10.96	85
11.2	89
11.44	88
11.68	64
11.92	96
12.16	88
12.4	89
12.64	79
12.88	103
13.12	91
13.36	95
13.6	95
13.84	101
14.08	85
14.32	78
14.56	91
14.8	83
15.04	98
15.28	86
15.52	100
15.76	100
16	108
16.24	83
16.48	94
16.72	100
16.96	116
17.2	108
17.44	107
17.68	237
17.92	105
18.16	111
18.4	120
18.64	93
18.88	98
19.12	104
19.36	87
19.6	248
19.84	118
20.08	131
20.32	109
20.56	113
20.8	123
21.04	101
21.28	137
21.52	104
21.76	132
22	90
22.24	133
22.48	130
22.72	110
22.96	137
23.2	135
23.44	138
23.68	137
23.92	100
24.16	113
24.4	105
24.64	114
24.88	109
25.12	93
25.36	109
25.6	113
25.84	121
26.08	167
26.32	190
26.56	154
26.8	134
27.04	121
27.28	123
27.52	92
27.76	102
28	112
28.24	107
28.48	146
28.72	109
28.96	106
29.2	105
29.44	114
29.68	104
29.92	131
30.16	165
30.4	150
30.64	195
30.88	255
31.12	223
31.36	193
31.6	159
31.84	207
32.08	199
32.32	148
32.56	121
32.8	149
33.04	167
33.28	131
33.52	126
33.76	117
34	116
34.24	113
34.48	92
34.72	91
34.96	74
35.2	77
35.44	70
35.68	83
35.92	68
36.16	76
36.4	80
36.64	57
36.88	69
37.12	79
37.36	70
37.6	74
37.84	82
38.08	81
38.32	358
38.56	498
38.8	103
39.04	92
39.28	80
39.52	76
39.76	74
40	70
40.24	90
40.48	67
40.72	67
40.96	76
41.2	69
41.44	67
41.68	61
41.92	73
42.16	58
42.4	63
42.64	75
42.88	57
43.12	85
43.36	64
43.6	71
43.84	59
44.08	71
44.32	98
44.56	396
44.8	525
45.04	85
45.28	86
45.52	85
45.76	85
46	94
46.24	67
46.48	77
46.72	98
46.96	67
47.2	70
47.44	77
47.68	63
47.92	67
48.16	60
48.4	50
48.64	64
48.88	71
49.12	54
49.36	53
49.6	64
49.84	55
50.08	54
50.32	67
50.56	50
50.8	67
51.04	49
51.28	54
51.52	60
51.76	60
52	59
52.24	75
52.48	52
52.72	74
52.96	63
53.2	82
53.44	55
53.68	53
53.92	64
54.16	57
54.4	52
54.64	45
54.88	53
55.12	50
55.36	40
55.6	34
55.84	56
56.08	43
56.32	51
56.56	56
56.8	49
57.04	45
57.28	47
57.52	39
57.76	38
58	52
58.24	56
58.48	38
58.72	36
58.96	67
59.2	45
59.44	36
59.68	28
59.92	61
60.16	35
60.4	39
60.64	31
60.88	29
61.12	35
61.36	47
61.6	38
61.84	48
62.08	31
62.32	31
62.56	30
62.8	50
63.04	21
63.28	30
63.52	34
63.76	33
64	45
64.24	38
64.48	41
64.72	46
64.96	81
65.2	95
65.44	40
65.68	32
65.92	28
66.16	25
66.4	42
66.64	32
66.88	28
67.12	35
67.36	35
67.6	38
67.84	40
68.08	34
68.32	32
68.56	35
68.8	28
69.04	35
69.28	30
69.52	29
69.76	35
70	30
70.24	41
70.48	25
70.72	23
70.96	34
71.2	30
71.44	32
71.68	24
71.92	34
72.16	27
72.4	33
72.64	22
72.88	26
73.12	22
73.36	30
73.6	27
73.84	32
74.08	21
74.32	20
74.56	30
74.8	30
75.04	31
75.28	22
75.52	33
75.76	26
76	21
76.24	20
76.48	28
76.72	30
76.96	26
77.2	28
77.44	31
77.68	25
77.92	36
78.16	185
78.4	128
78.64	44
78.88	43
79.12	38
79.36	28
79.6	25
79.84	25
80	36